File: Pattern6Data/3_28_22_pattern6run6_C13_I.mpt
EC-Lab ASCII FILE
Nb header lines : 67

Galvanostatic Cycling with Potential Limitation

Run on channel : 13 (SN 21786)
User :
CE vs. WE compliance from -10 V to 10 V
Electrode connection : standard
Ewe ctrl range : min = -5.00 V, max = 5.00 V
Safety Limits :
	Do not start on E overload
Acquisition started on : 03/28/2022 13:53:29
Technique started on : 03/28/2022 13:53:38
Saved on :
	File : 3_28_22_pattern6run6_C13.mpr
	Directory : E:\Catherine\
	Host : 192.109.209.129
Device : VMP3 (SN 0960)
Address : USB
EC-Lab for windows v11.17 (software)
Internet server v11.16 (firmware)
Command interpretor v11.16 (firmware)
Electrode material :
Initial state :
Electrolyte :
Comments :
Electrode surface area : 1.400 cm²
Characteristic mass : 5.290 g
Equivalent Weight : 0.000 g/eq.
Density : 0.000 g/cm3
Cycle Definition : Charge/Discharge alternance
Ns                  0                   1                   2                   3                   4
Set I/C             I                   I                   I                   I                   I
Is                  0.000               -1.400              1.400               -8.400              1.400
unit Is             mA                  mA                  mA                  mA                  mA
vs.                 <None>              <None>              <None>              <None>              <None>
N                   1.00                1.00                1.00                1.00                1.00
I sign              > 0                 > 0                 > 0                 > 0                 > 0
t1 (h:m:s)          0:00:0.0000         40:00:0.0000        40:00:0.0000        40:00:0.0000        40:00:0.0000
I Range             10 mA               10 mA               10 mA               10 mA               10 mA
Bandwidth           5                   5                   5                   5                   5
dE1 (mV)            0.00                0.00                0.00                0.00                0.00
dt1 (s)             0.0000              10.0000             10.0000             10.0000             10.0000
EM (V)              0.000               0.010               1.500               -0.050              1.500
tM (h:m:s)          0:00:0.0000         2:00:0.0000         2:00:0.0000         2:00:0.0000         2:00:0.0000
Im                  0.000               0.000               0.000               0.000               0.000
unit Im             mA                  mA                  mA                  mA                  mA
dI/dt               0.000               0.000               0.000               0.000               0.000
dunit dI/dt         mA/s                mA/s                mA/s                mA/s                mA/s
E range min (V)     -5.000              -5.000              -5.000              -5.000              -5.000
E range max (V)     5.000               5.000               5.000               5.000               5.000
dq                  0.000               0.000               0.000               0.000               0.000
unit dq             A.h                 A.h                 A.h                 A.h                 A.h
dtq (s)             0.0000              10.0000             10.0000             10.0000             10.0000
dQM                 0.000               0.000               0.000               0.000               0.000
unit dQM            mA.h                mA.h                mA.h                mA.h                mA.h
dxM                 0.000               0.000               0.000               0.000               0.000
tR (h:m:s)          0:00:0.0000         0:00:0.0000         0:00:0.0000         0:00:0.0000         0:00:0.0000
dER/dt (mV/h)       0.0                 0.0                 0.0                 0.0                 0.0
dER (mV)            0.00                0.00                0.00                0.00                0.00
dtR (s)             60.0000             120.0000            120.0000            120.0000            120.0000
EL (V)              pass                3.500               3.500               3.500               3.500
goto Ns'            0                   0                   0                   0                   4
nc cycles           0                   0                   0                   0                   2

mode	ox/red	error	control changes	Ns changes	counter inc.	Ns	time/s	dq/mA.h	(Q-Qo)/mA.h	control/V/mA	Ewe/V	Q charge/discharge/mA.h	half cycle	Energy charge/W.h	Energy discharge/W.h	Capacitance charge/µF	Capacitance discharge/µF	<I>/mA	Q discharge/mA.h	Q charge/mA.h	Capacity/mA.h	Efficiency/%	control/V	control/mA	cycle number	P/W
1	0	0	1	1	0	1	9.9994	-0.00387069	-0.00387069	-1.4	0.684048	-0.00387069	0	0.000000000000000E+000	-2.64774e-06	0.000000000000000E+000	0.000000000000000E+000	-1.39353	0.00387069	0.000000000000000E+000	0.00387069	0	0	-1.4	0.000000000000000E+000	-0.000953242
1	0	0	1	0	0	1	259.999	-0.00389007	-0.101125	-1.4	0.0781504	-0.101125	0	0.000000000000000E+000	-1.95575e-05	0.000000000000000E+000	600847	-1.40043	0.101125	0.000000000000000E+000	0.101125	0	0	-1.4	0.000000000000000E+000	-0.000109444
1	0	0	1	0	0	1	509.999	-0.00389014	-0.198379	-1.4	0.0394753	-0.198379	0	0.000000000000000E+000	-2.47259e-05	0.000000000000000E+000	1.10796e+06	-1.40045	0.198379	0.000000000000000E+000	0.198379	0	0	-1.4	0.000000000000000E+000	-5.52831e-05
1	0	0	1	0	0	1	759.999	-0.00389017	-0.295633	-1.4	0.0164344	-0.295633	0	0.000000000000000E+000	-2.73468e-05	0.000000000000000E+000	1.59415e+06	-1.40046	0.295633	0.000000000000000E+000	0.295633	0	0	-1.4	0.000000000000000E+000	-2.30157e-05
2	1	0	0	0	0	1	1005.68	-0.00325244	-0.38606	0.010023	0.00898948	-0.38606	0	0.000000000000000E+000	-2.82919e-05	0.000000000000000E+000	2.05881e+06	-1.17088	0.38606	0.000000000000000E+000	0.38606	0	0.010023	0	0.000000000000000E+000	-1.05256e-05
2	1	0	0	0	0	1	1255.68	-0.00236145	-0.455443	0.010023	0.00889404	-0.455443	0	0.000000000000000E+000	-2.89157e-05	0.000000000000000E+000	2.42848e+06	-0.850121	0.455443	0.000000000000000E+000	0.455443	0	0.010023	0	0.000000000000000E+000	-7.561e-06
2	1	0	0	0	0	1	1505.68	-0.00169246	-0.505265	0.010023	0.00883677	-0.505265	0	0.000000000000000E+000	-2.93619e-05	0.000000000000000E+000	2.6939e+06	-0.609285	0.505265	0.000000000000000E+000	0.505265	0	0.010023	0	0.000000000000000E+000	-5.38411e-06
2	1	0	0	0	0	1	1755.68	-0.00123756	-0.541309	0.010023	0.00895131	-0.541309	0	0.000000000000000E+000	-2.96862e-05	0.000000000000000E+000	2.88657e+06	-0.445523	0.541309	0.000000000000000E+000	0.541309	0	0.010023	0	0.000000000000000E+000	-3.98801e-06
2	1	0	0	0	0	1	2005.68	-0.000938991	-0.568141	0.010023	0.00904675	-0.568141	0	0.000000000000000E+000	-2.99278e-05	0.000000000000000E+000	3.03008e+06	-0.338037	0.568141	0.000000000000000E+000	0.568141	0	0.010023	0	0.000000000000000E+000	-3.05813e-06
2	1	0	0	0	0	1	2255.68	-0.000737772	-0.588839	0.010023	0.00889404	-0.588839	0	0.000000000000000E+000	-3.01134e-05	0.000000000000000E+000	3.13976e+06	-0.265598	0.588839	0.000000000000000E+000	0.588839	0	0.010023	0	0.000000000000000E+000	-2.36224e-06
2	1	0	0	0	0	1	2505.68	-0.000601739	-0.605388	0.010023	0.00889404	-0.605388	0	0.000000000000000E+000	-3.02621e-05	0.000000000000000E+000	3.228e+06	-0.216626	0.605388	0.000000000000000E+000	0.605388	0	0.010023	0	0.000000000000000E+000	-1.92668e-06
2	1	0	0	0	0	1	2755.68	-0.000509378	-0.619201	0.010023	0.00898948	-0.619201	0	0.000000000000000E+000	-3.03859e-05	0.000000000000000E+000	3.30212e+06	-0.183376	0.619201	0.000000000000000E+000	0.619201	0	0.010023	0	0.000000000000000E+000	-1.64846e-06
2	1	0	0	0	0	1	3005.68	-0.000436986	-0.630959	0.010023	0.00889404	-0.630959	0	0.000000000000000E+000	-3.04914e-05	0.000000000000000E+000	3.36435e+06	-0.157315	0.630959	0.000000000000000E+000	0.630959	0	0.010023	0	0.000000000000000E+000	-1.39916e-06
2	1	0	0	0	0	1	3255.68	-0.000384744	-0.641186	0.010023	0.00904675	-0.641186	0	0.000000000000000E+000	-3.05832e-05	0.000000000000000E+000	3.41965e+06	-0.138508	0.641186	0.000000000000000E+000	0.641186	0	0.010023	0	0.000000000000000E+000	-1.25305e-06
2	1	0	0	0	0	1	3505.68	-0.000344853	-0.650255	0.010023	0.00897039	-0.650255	0	0.000000000000000E+000	-3.06647e-05	0.000000000000000E+000	3.46763e+06	-0.124147	0.650255	0.000000000000000E+000	0.650255	0	0.010023	0	0.000000000000000E+000	-1.11365e-06
2	1	0	0	0	0	1	3755.68	-0.000317828	-0.658547	0.010023	0.00908493	-0.658547	0	0.000000000000000E+000	-3.07392e-05	0.000000000000000E+000	3.51244e+06	-0.114418	0.658547	0.000000000000000E+000	0.658547	0	0.010023	0	0.000000000000000E+000	-1.03948e-06
2	1	0	0	0	0	1	4005.68	-0.000289132	-0.666079	0.010023	0.00910402	-0.666079	0	0.000000000000000E+000	-3.08069e-05	0.000000000000000E+000	3.55272e+06	-0.104087	0.666079	0.000000000000000E+000	0.666079	0	0.010023	0	0.000000000000000E+000	-9.47614e-07
2	1	0	0	0	0	1	4255.68	-0.000268123	-0.673008	0.010023	0.00897039	-0.673008	0	0.000000000000000E+000	-3.0869e-05	0.000000000000000E+000	3.58896e+06	-0.0965243	0.673008	0.000000000000000E+000	0.673008	0	0.010023	0	0.000000000000000E+000	-8.65861e-07
2	1	0	0	0	0	1	4505.68	-0.000245488	-0.679412	0.010023	0.00891313	-0.679412	0	0.000000000000000E+000	-3.09264e-05	0.000000000000000E+000	3.6228e+06	-0.0883757	0.679412	0.000000000000000E+000	0.679412	0	0.010023	0	0.000000000000000E+000	-7.87704e-07
2	1	0	0	0	0	1	4755.68	-0.000229697	-0.685353	0.010023	0.00889404	-0.685353	0	0.000000000000000E+000	-3.09798e-05	0.000000000000000E+000	3.65438e+06	-0.082691	0.685353	0.000000000000000E+000	0.685353	0	0.010023	0	0.000000000000000E+000	-7.35456e-07
2	1	0	0	0	0	1	5005.68	-0.000215307	-0.690901	0.010023	0.00900857	-0.690901	0	0.000000000000000E+000	-3.10298e-05	0.000000000000000E+000	3.68459e+06	-0.0775105	0.690901	0.000000000000000E+000	0.690901	0	0.010023	0	0.000000000000000E+000	-6.98259e-07
2	1	0	0	0	0	1	5255.68	-0.000203942	-0.696131	0.010023	0.00897039	-0.696131	0	0.000000000000000E+000	-3.10767e-05	0.000000000000000E+000	3.71227e+06	-0.0734192	0.696131	0.000000000000000E+000	0.696131	0	0.010023	0	0.000000000000000E+000	-6.58599e-07
2	1	0	0	0	0	1	5505.68	-0.000192477	-0.701087	0.010023	0.00906584	-0.701087	0	0.000000000000000E+000	-3.11214e-05	0.000000000000000E+000	3.73923e+06	-0.0692916	0.701087	0.000000000000000E+000	0.701087	0	0.010023	0	0.000000000000000E+000	-6.28187e-07
2	1	0	0	0	0	1	5755.68	-0.000183406	-0.705772	0.010023	0.00902766	-0.705772	0	0.000000000000000E+000	-3.11634e-05	0.000000000000000E+000	3.764e+06	-0.066026	0.705772	0.000000000000000E+000	0.705772	0	0.010023	0	0.000000000000000E+000	-5.96061e-07
2	1	0	0	0	0	1	6005.68	-0.000176773	-0.710267	0.010023	0.00895131	-0.710267	0	0.000000000000000E+000	-3.12038e-05	0.000000000000000E+000	3.78755e+06	-0.0636382	0.710267	0.000000000000000E+000	0.710267	0	0.010023	0	0.000000000000000E+000	-5.69645e-07
2	1	0	0	0	0	1	6255.68	-0.000166348	-0.714556	0.010023	0.00895131	-0.714556	0	0.000000000000000E+000	-3.12423e-05	0.000000000000000E+000	3.81042e+06	-0.0598853	0.714556	0.000000000000000E+000	0.714556	0	0.010023	0	0.000000000000000E+000	-5.36051e-07
2	1	0	0	0	0	1	6505.68	-0.000158861	-0.718619	0.010023	0.00900857	-0.718619	0	0.000000000000000E+000	-3.1279e-05	0.000000000000000E+000	3.83241e+06	-0.05719	0.718619	0.000000000000000E+000	0.718619	0	0.010023	0	0.000000000000000E+000	-5.152e-07
2	1	0	0	0	0	1	6755.68	-0.000153489	-0.722527	0.010023	0.00900857	-0.722527	0	0.000000000000000E+000	-3.13141e-05	0.000000000000000E+000	3.85325e+06	-0.055256	0.722527	0.000000000000000E+000	0.722527	0	0.010023	0	0.000000000000000E+000	-4.97778e-07
2	1	0	0	0	0	1	7005.68	-0.000147038	-0.726279	0.010023	0.00898948	-0.726279	0	0.000000000000000E+000	-3.13478e-05	0.000000000000000E+000	3.87315e+06	-0.0529338	0.726279	0.000000000000000E+000	0.726279	0	0.010023	0	0.000000000000000E+000	-4.75848e-07
2	1	0	0	0	0	1	7255.68	-0.000140835	-0.729875	0.010023	0.00895131	-0.729875	0	0.000000000000000E+000	-3.13801e-05	0.000000000000000E+000	3.89211e+06	-0.0507006	0.729875	0.000000000000000E+000	0.729875	0	0.010023	0	0.000000000000000E+000	-4.53837e-07
2	1	0	0	0	0	1	7505.68	-0.000137168	-0.733355	0.010023	0.00893222	-0.733355	0	0.000000000000000E+000	-3.14113e-05	0.000000000000000E+000	3.91056e+06	-0.0493804	0.733355	0.000000000000000E+000	0.733355	0	0.010023	0	0.000000000000000E+000	-4.41076e-07
2	1	0	0	0	0	1	7755.68	-0.000133462	-0.736744	0.010023	0.00895131	-0.736744	0	0.000000000000000E+000	-3.14417e-05	0.000000000000000E+000	3.92874e+06	-0.0480465	0.736744	0.000000000000000E+000	0.736744	0	0.010023	0	0.000000000000000E+000	-4.30079e-07
2	1	0	0	0	0	1	8005.68	-0.000129508	-0.740017	0.010023	0.00902766	-0.740017	0	0.000000000000000E+000	-3.14711e-05	0.000000000000000E+000	3.94664e+06	-0.0466229	0.740017	0.000000000000000E+000	0.740017	0	0.010023	0	0.000000000000000E+000	-4.20895e-07
1	1	0	1	0	0	2	8245.68	0.00388722	-0.66279	1.4	0.167142	0.0777435	2	1.12444e-05	0.000000000000000E+000	3.22228e+06	0.000000000000000E+000	1.3994	0.000000000000000E+000	0.0777435	0.0777435	0	0	1.4	1	0.000233898
1	1	0	1	0	0	2	8495.68	0.00388724	-0.565609	1.4	0.199517	0.174924	2	2.91383e-05	0.000000000000000E+000	5.2815e+06	0.000000000000000E+000	1.3994	0.000000000000000E+000	0.174924	0.174924	0	0	1.4	1	0.000279206
1	1	0	1	0	0	2	8745.68	0.00388726	-0.468429	1.4	0.228591	0.272105	2	4.99916e-05	0.000000000000000E+000	6.60513e+06	0.000000000000000E+000	1.39941	0.000000000000000E+000	0.272105	0.272105	0	0	1.4	1	0.000319893
1	1	0	1	0	0	2	8995.68	0.00388716	-0.371248	1.4	0.268564	0.369285	2	7.40205e-05	0.000000000000000E+000	7.06095e+06	0.000000000000000E+000	1.39938	0.000000000000000E+000	0.369285	0.369285	0	0	1.4	1	0.000375822
1	1	0	1	0	0	2	9245.68	0.00388719	-0.274069	1.4	0.39087	0.466465	2	0.000104595	0.000000000000000E+000	5.40682e+06	0.000000000000000E+000	1.39939	0.000000000000000E+000	0.466465	0.466465	0	0	1.4	1	0.000546979
2	1	0	0	0	0	2	9490.9	0.00187504	-0.185926	1.49992	1.4989	0.554608	2	0.000177651	0.000000000000000E+000	1.40743e+06	0.000000000000000E+000	0.675014	0.000000000000000E+000	0.554608	0.554608	0	1.49992	0	1	0.00101178
2	1	0	0	0	0	2	9740.9	0.000456392	-0.164052	1.49992	1.49901	0.576481	2	0.000210438	0.000000000000000E+000	1.46282e+06	0.000000000000000E+000	0.164301	0.000000000000000E+000	0.576481	0.576481	0	1.49992	0	1	0.000246289
2	1	0	0	0	0	2	9990.9	0.000225075	-0.156148	1.49992	1.49893	0.584385	2	0.000222285	0.000000000000000E+000	1.48295e+06	0.000000000000000E+000	0.0810268	0.000000000000000E+000	0.584385	0.584385	0	1.49992	0	1	0.000121454
2	1	0	0	0	0	2	10240.9	0.000143799	-0.151762	1.49992	1.49901	0.588772	2	0.00022886	0.000000000000000E+000	1.494e+06	0.000000000000000E+000	0.0517676	0.000000000000000E+000	0.588772	0.588772	0	1.49992	0	1	7.76002e-05
2	1	0	0	0	0	2	10490.9	0.000105079	-0.148689	1.49992	1.49897	0.591844	2	0.000233466	0.000000000000000E+000	1.50184e+06	0.000000000000000E+000	0.0378285	0.000000000000000E+000	0.591844	0.591844	0	1.49992	0	1	5.67038e-05
2	1	0	0	0	0	2	10740.9	8.31377e-05	-0.146343	1.49992	1.49895	0.594191	2	0.000236984	0.000000000000000E+000	1.50781e+06	0.000000000000000E+000	0.0299296	0.000000000000000E+000	0.594191	0.594191	0	1.49992	0	1	4.4863e-05
2	1	0	0	0	0	2	10990.9	6.58662e-05	-0.144493	1.49992	1.49888	0.59604	2	0.000239756	0.000000000000000E+000	1.51259e+06	0.000000000000000E+000	0.0237118	0.000000000000000E+000	0.59604	0.59604	0	1.49992	0	1	3.55411e-05
2	1	0	0	0	0	2	11240.9	5.34451e-05	-0.143025	1.49992	1.49903	0.597508	2	0.000241956	0.000000000000000E+000	1.51615e+06	0.000000000000000E+000	0.0192402	0.000000000000000E+000	0.597508	0.597508	0	1.49992	0	1	2.88416e-05
2	1	0	0	0	0	2	11490.9	4.46701e-05	-0.141814	1.49992	1.49893	0.598719	2	0.000243771	0.000000000000000E+000	1.51933e+06	0.000000000000000E+000	0.0160812	0.000000000000000E+000	0.598719	0.598719	0	1.49992	0	1	2.41047e-05
2	1	0	0	0	0	2	11740.9	3.76751e-05	-0.1408	1.49992	1.49899	0.599733	2	0.000245291	0.000000000000000E+000	1.52184e+06	0.000000000000000E+000	0.013563	0.000000000000000E+000	0.599733	0.599733	0	1.49992	0	1	2.03309e-05
2	1	0	0	0	0	2	11990.9	3.07791e-05	-0.139936	1.49992	1.49895	0.600597	2	0.000246586	0.000000000000000E+000	1.52407e+06	0.000000000000000E+000	0.0110805	0.000000000000000E+000	0.600597	0.600597	0	1.49992	0	1	1.66091e-05
2	1	0	0	0	0	2	12240.9	2.81454e-05	-0.139199	1.49992	1.49901	0.601335	2	0.000247692	0.000000000000000E+000	1.52588e+06	0.000000000000000E+000	0.0101324	0.000000000000000E+000	0.601335	0.601335	0	1.49992	0	1	1.51885e-05
2	1	0	0	0	0	2	12490.9	2.10067e-05	-0.138568	1.49992	1.49891	0.601966	2	0.000248637	0.000000000000000E+000	1.52758e+06	0.000000000000000E+000	0.00756241	0.000000000000000E+000	0.601966	0.601966	0	1.49992	0	1	1.13354e-05
2	1	0	0	0	0	2	12740.9	2.05277e-05	-0.138024	1.49992	1.49895	0.602509	2	0.000249452	0.000000000000000E+000	1.52892e+06	0.000000000000000E+000	0.00738996	0.000000000000000E+000	0.602509	0.602509	0	1.49992	0	1	1.10772e-05
2	1	0	0	0	0	2	12990.9	1.7463e-05	-0.137553	1.49992	1.49905	0.602981	2	0.000250159	0.000000000000000E+000	1.53002e+06	0.000000000000000E+000	0.00628669	0.000000000000000E+000	0.602981	0.602981	0	1.49992	0	1	9.42404e-06
2	1	0	0	0	0	2	13240.9	1.55815e-05	-0.137138	1.49992	1.4989	0.603395	2	0.00025078	0.000000000000000E+000	1.53123e+06	0.000000000000000E+000	0.00560936	0.000000000000000E+000	0.603395	0.603395	0	1.49992	0	1	8.40784e-06
2	1	0	0	0	0	2	13490.9	1.23306e-05	-0.136787	1.49992	1.49891	0.603746	2	0.000251306	0.000000000000000E+000	1.5321e+06	0.000000000000000E+000	0.00443901	0.000000000000000E+000	0.603746	0.603746	0	1.49992	0	1	6.6537e-06
2	1	0	0	0	0	2	13740.9	9.97223e-06	-0.13649	1.49992	1.4989	0.604043	2	0.000251752	0.000000000000000E+000	1.53288e+06	0.000000000000000E+000	0.00359	0.000000000000000E+000	0.604043	0.604043	0	1.49992	0	1	5.38104e-06
2	1	0	0	0	0	2	13990.9	8.32945e-06	-0.136261	1.49992	1.49897	0.604273	2	0.000252096	0.000000000000000E+000	1.53338e+06	0.000000000000000E+000	0.0029986	0.000000000000000E+000	0.604273	0.604273	0	1.49992	0	1	4.49482e-06
2	1	0	0	0	0	2	14240.9	8.59753e-06	-0.136055	1.49992	1.49905	0.604478	2	0.000252404	0.000000000000000E+000	1.53382e+06	0.000000000000000E+000	0.00309511	0.000000000000000E+000	0.604478	0.604478	0	1.49992	0	1	4.63972e-06
2	1	0	0	0	0	2	14490.9	6.60825e-06	-0.135869	1.49992	1.49895	0.604664	2	0.000252683	0.000000000000000E+000	1.53439e+06	0.000000000000000E+000	0.00237897	0.000000000000000E+000	0.604664	0.604664	0	1.49992	0	1	3.56596e-06
2	1	0	0	0	0	2	14740.9	6.56912e-06	-0.135719	1.49992	1.49895	0.604815	2	0.000252908	0.000000000000000E+000	1.53477e+06	0.000000000000000E+000	0.00236488	0.000000000000000E+000	0.604815	0.604815	0	1.49992	0	1	3.54485e-06
2	1	0	0	0	0	2	14990.9	2.46716e-06	-0.135597	1.49992	1.49899	0.604936	2	0.00025309	0.000000000000000E+000	1.53504e+06	0.000000000000000E+000	0.000888178	0.000000000000000E+000	0.604936	0.604936	0	1.49992	0	1	1.33137e-06
2	1	0	0	0	0	2	15240.9	3.2428e-06	-0.135504	1.49992	1.49903	0.605029	2	0.00025323	0.000000000000000E+000	1.53524e+06	0.000000000000000E+000	0.00116741	0.000000000000000E+000	0.605029	0.605029	0	1.49992	0	1	1.74998e-06
2	1	0	0	0	0	2	15490.9	8.20475e-06	-0.135352	1.49992	1.49914	0.605181	2	0.000253457	0.000000000000000E+000	1.5355e+06	0.000000000000000E+000	0.00295371	0.000000000000000E+000	0.605181	0.605181	0	1.49992	0	1	4.42803e-06
2	1	0	0	0	0	2	15740.9	7.38148e-06	-0.1352	1.49992	1.49899	0.605334	2	0.000253686	0.000000000000000E+000	1.53605e+06	0.000000000000000E+000	0.00265733	0.000000000000000E+000	0.605334	0.605334	0	1.49992	0	1	3.98332e-06
2	1	0	0	0	0	2	15990.9	6.35812e-06	-0.135052	1.49992	1.49891	0.605482	2	0.000253908	0.000000000000000E+000	1.53651e+06	0.000000000000000E+000	0.00228892	0.000000000000000E+000	0.605482	0.605482	0	1.49992	0	1	3.4309e-06
2	1	0	0	0	0	2	16240.9	-1.10485e-05	-0.134933	1.49992	1.49903	0.6056	2	0.000254112	-2.66882e-08	1.53679e+06	3.36038e+06	-0.00397745	0.000000000000000E+000	0.6056	0.6056	0	1.49992	0	1	-5.96231e-06
2	1	0	0	0	0	2	16490.9	-3.0708e-06	-0.135008	1.49992	1.49903	0.605526	2	0.000254112	-1.38156e-07	1.53679e+06	1.73959e+07	-0.00110549	0.000000000000000E+000	0.605526	0.605526	0	1.49992	0	1	-1.65716e-06
2	1	0	0	0	0	3	16730.1	-0.0115619	-0.264612	-0.0499729	-0.0509512	-0.129573	3	0.000254112	6.40247e-06	1.53679e+06	301237	-4.16227	0.129573	0.000000000000000E+000	0.129573	0	-0.0499729	0	1	0.000212073
2	1	0	0	0	0	3	16980.1	-0.00834336	-0.507067	-0.0499729	-0.0510276	-0.372028	3	0.000254112	1.8778e-05	1.53679e+06	864330	-3.00361	0.372028	0.000000000000000E+000	0.372028	0	-0.0499729	0	1	0.000153267
2	1	0	0	0	0	3	17230.1	-0.00645798	-0.688765	-0.0499729	-0.051104	-0.553726	3	0.000254112	2.805e-05	1.53679e+06	1.28627e+06	-2.32487	0.553726	0.000000000000000E+000	0.553726	0	-0.0499729	0	1	0.00011881
2	1	0	0	0	0	3	17480.1	-0.00584866	-0.839682	-0.0499729	-0.0510085	-0.704643	3	0.000254112	3.57505e-05	1.53679e+06	1.63686e+06	-2.10552	0.704643	0.000000000000000E+000	0.704643	0	-0.0499729	0	1	0.000107399
2	1	0	0	0	0	3	17730.1	-0.00610756	-0.988509	-0.0499729	-0.0509703	-0.85347	3	0.000254112	4.33444e-05	1.53679e+06	1.98257e+06	-2.19872	0.85347	0.000000000000000E+000	0.85347	0	-0.0499729	0	1	0.00011207
2	1	0	0	0	0	3	17980.1	-0.00648293	-1.14611	-0.0499729	-0.0510276	-1.01107	3	0.000254112	5.13829e-05	1.53679e+06	2.34852e+06	-2.33386	1.01107	0.000000000000000E+000	1.01107	0	-0.0499729	0	1	0.000119091
2	1	0	0	0	0	3	18230.1	-0.0068116	-1.31258	-0.0499729	-0.0510658	-1.17754	3	0.000254112	5.98815e-05	1.53679e+06	2.73509e+06	-2.45217	1.17754	0.000000000000000E+000	1.17754	0	-0.0499729	0	1	0.000125222
2	1	0	0	0	0	3	18480.1	-0.00705916	-1.48632	-0.0499729	-0.051104	-1.35128	3	0.000254112	6.87444e-05	1.53679e+06	3.13851e+06	-2.5413	1.35128	0.000000000000000E+000	1.35128	0	-0.0499729	0	1	0.00012987
2	1	0	0	0	0	3	18730.1	-0.00723561	-1.66516	-0.0499729	-0.0510467	-1.53012	3	0.000254112	7.787e-05	1.53679e+06	3.55398e+06	-2.60482	1.53012	0.000000000000000E+000	1.53012	0	-0.0499729	0	1	0.000132967
2	1	0	0	0	0	3	18980.1	-0.00736255	-1.84774	-0.0499729	-0.0510849	-1.7127	3	0.000254112	8.71874e-05	1.53679e+06	3.97794e+06	-2.65052	1.7127	0.000000000000000E+000	1.7127	0	-0.0499729	0	1	0.000135401
2	1	0	0	0	0	3	19230.1	-0.00746361	-2.03312	-0.0499729	-0.0510276	-1.89808	3	0.000254112	9.66473e-05	1.53679e+06	4.40863e+06	-2.6869	1.89808	0.000000000000000E+000	1.89808	0	-0.0499729	0	1	0.000137106
2	1	0	0	0	0	3	19480.1	-0.00755348	-2.22096	-0.0499729	-0.0509322	-2.08592	3	0.000254112	0.000106233	1.53679e+06	4.84518e+06	-2.71925	2.08592	0.000000000000000E+000	2.08592	0	-0.0499729	0	1	0.000138497
2	1	0	0	0	0	3	19730.1	-0.00762077	-2.41071	-0.0499729	-0.0510467	-2.27567	3	0.000254112	0.000115913	1.53679e+06	5.28552e+06	-2.74348	2.27567	0.000000000000000E+000	2.27567	0	-0.0499729	0	1	0.000140045
2	1	0	0	0	0	3	19980.1	-0.00768416	-2.60213	-0.0499729	-0.0510276	-2.46709	3	0.000254112	0.000125683	1.53679e+06	5.73016e+06	-2.7663	2.46709	0.000000000000000E+000	2.46709	0	-0.0499729	0	1	0.000141158
2	1	0	0	0	0	3	20230.1	-0.00774239	-2.79499	-0.0499729	-0.0510085	-2.65995	3	0.000254112	0.000135525	1.53679e+06	6.17816e+06	-2.78726	2.65995	0.000000000000000E+000	2.65995	0	-0.0499729	0	1	0.000142174
2	1	0	0	0	0	3	20480.1	-0.00778929	-2.98911	-0.0499729	-0.0511231	-2.85407	3	0.000254112	0.000145429	1.53679e+06	6.62852e+06	-2.80415	2.85407	0.000000000000000E+000	2.85407	0	-0.0499729	0	1	0.000143356
2	1	0	0	0	0	3	20730.1	-0.00782967	-3.18444	-0.0499729	-0.0510085	-3.04941	3	0.000254112	0.000155398	1.53679e+06	7.08269e+06	-2.81868	3.04941	0.000000000000000E+000	3.04941	0	-0.0499729	0	1	0.000143777
2	1	0	0	0	0	3	20980.1	-0.00788036	-3.38078	-0.0499729	-0.0510085	-3.24574	3	0.000254112	0.000165418	1.53679e+06	7.53869e+06	-2.83693	3.24574	0.000000000000000E+000	3.24574	0	-0.0499729	0	1	0.000144708
2	1	0	0	0	0	3	21230.1	-0.00791206	-3.57817	-0.0499729	-0.0509512	-3.44313	3	0.000254112	0.000175491	1.53679e+06	7.99743e+06	-2.84834	3.44313	0.000000000000000E+000	3.44313	0	-0.0499729	0	1	0.000145127
2	1	0	0	0	0	3	21480.1	-0.00795151	-3.77648	-0.0499729	-0.0509512	-3.64144	3	0.000254112	0.00018561	1.53679e+06	8.45803e+06	-2.86254	3.64144	0.000000000000000E+000	3.64144	0	-0.0499729	0	1	0.00014585
2	1	0	0	0	0	3	21730.1	-0.00799248	-3.97581	-0.0499729	-0.0510467	-3.84077	3	0.000254112	0.000195779	1.53679e+06	8.92046e+06	-2.87729	3.84077	0.000000000000000E+000	3.84077	0	-0.0499729	0	1	0.000146876
2	1	0	0	0	0	3	21980.1	-0.0080317	-4.17614	-0.0499729	-0.0510467	-4.0411	3	0.000254112	0.000206001	1.53679e+06	9.38572e+06	-2.89141	4.0411	0.000000000000000E+000	4.0411	0	-0.0499729	0	1	0.000147597
2	1	0	0	0	0	3	22230.1	-0.00807313	-4.37744	-0.0499729	-0.0510467	-4.2424	3	0.000254112	0.000216267	1.53679e+06	9.85323e+06	-2.90633	4.2424	0.000000000000000E+000	4.2424	0	-0.0499729	0	1	0.000148358
2	1	0	0	0	0	3	22480.1	-0.00811076	-4.57976	-0.0499729	-0.0510085	-4.44472	3	0.000254112	0.000226593	1.53679e+06	1.03234e+07	-2.91987	4.44472	0.000000000000000E+000	4.44472	0	-0.0499729	0	1	0.000148938
2	1	0	0	0	0	3	22730.1	-0.00815735	-4.78318	-0.0499729	-0.0509322	-4.64814	3	0.000254112	0.000236979	1.53679e+06	1.07964e+07	-2.93664	4.64814	0.000000000000000E+000	4.64814	0	-0.0499729	0	1	0.00014957
2	1	0	0	0	0	3	22980.1	-0.00819926	-4.98766	-0.0499729	-0.0510658	-4.85262	3	0.000254112	0.000247413	1.53679e+06	1.12703e+07	-2.95173	4.85262	0.000000000000000E+000	4.85262	0	-0.0499729	0	1	0.000150733
2	1	0	0	0	0	3	23230.1	-0.0082312	-5.19301	-0.0499729	-0.0509894	-5.05797	3	0.000254112	0.000257889	1.53679e+06	1.17478e+07	-2.96323	5.05797	0.000000000000000E+000	5.05797	0	-0.0499729	0	1	0.000151094
2	1	0	0	0	0	3	23480.1	-0.00827352	-5.3994	-0.0499729	-0.0512185	-5.26436	3	0.000254112	0.000268423	1.53679e+06	1.22254e+07	-2.97847	5.26436	0.000000000000000E+000	5.26436	0	-0.0499729	0	1	0.000152553
2	1	0	0	0	0	3	23730.1	-0.00831566	-5.60672	-0.0499729	-0.051104	-5.47168	3	0.000254112	0.000279004	1.53679e+06	1.27078e+07	-2.99364	5.47168	0.000000000000000E+000	5.47168	0	-0.0499729	0	1	0.000152987
1	1	0	1	0	0	4	23970.1	0.0038872	-5.65999	1.4	0.0176908	0.0466451	4	5.59339e-07	0.000000000000000E+000	1.03126e+07	0.000000000000000E+000	1.39939	0.000000000000000E+000	0.0466451	0.0466451	0	0	1.4	2	2.47564e-05
1	1	0	1	0	0	4	24220.1	0.00388716	-5.56281	1.4	0.0242576	0.143825	4	2.69637e-06	0.000000000000000E+000	2.26595e+07	0.000000000000000E+000	1.39938	0.000000000000000E+000	0.143825	0.143825	0	0	1.4	2	3.39455e-05
1	1	0	1	0	0	4	24470.1	0.00388716	-5.46563	1.4	0.0258038	0.241004	4	5.14645e-06	0.000000000000000E+000	3.55633e+07	0.000000000000000E+000	1.39938	0.000000000000000E+000	0.241004	0.241004	0	0	1.4	2	3.61093e-05
1	1	0	1	0	0	4	24720.1	0.00388715	-5.36845	1.4	0.0263383	0.338183	4	7.69582e-06	0.000000000000000E+000	4.88336e+07	0.000000000000000E+000	1.39937	0.000000000000000E+000	0.338183	0.338183	0	0	1.4	2	3.68571e-05
1	1	0	1	0	0	4	24970.1	0.00388721	-5.27127	1.4	0.0267965	0.435362	4	1.02909e-05	0.000000000000000E+000	6.17318e+07	0.000000000000000E+000	1.3994	0.000000000000000E+000	0.435362	0.435362	0	0	1.4	2	3.74989e-05
1	1	0	1	0	0	4	25220.1	0.00388729	-5.17409	1.4	0.0272164	0.532543	4	1.29136e-05	0.000000000000000E+000	7.42828e+07	0.000000000000000E+000	1.39942	0.000000000000000E+000	0.532543	0.532543	0	0	1.4	2	3.80873e-05
1	1	0	1	0	0	4	25470.1	0.00388721	-5.07691	1.4	0.027331	0.629724	4	1.55551e-05	0.000000000000000E+000	8.74501e+07	0.000000000000000E+000	1.39939	0.000000000000000E+000	0.629724	0.629724	0	0	1.4	2	3.82468e-05
1	1	0	1	0	0	4	25720.1	0.00388723	-4.97973	1.4	0.0274264	0.726904	4	1.82114e-05	0.000000000000000E+000	1.00575e+08	0.000000000000000E+000	1.3994	0.000000000000000E+000	0.726904	0.726904	0	0	1.4	2	3.83806e-05
1	1	0	1	0	0	4	25970.1	0.00388718	-4.88255	1.4	0.0275028	0.824085	4	2.08832e-05	0.000000000000000E+000	1.13688e+08	0.000000000000000E+000	1.39938	0.000000000000000E+000	0.824085	0.824085	0	0	1.4	2	3.8487e-05
1	1	0	1	0	0	4	26220.1	0.00388723	-4.78537	1.4	0.0276937	0.921266	4	2.3565e-05	0.000000000000000E+000	1.26171e+08	0.000000000000000E+000	1.3994	0.000000000000000E+000	0.921266	0.921266	0	0	1.4	2	3.87546e-05
1	1	0	1	0	0	4	26470.1	0.00388723	-4.68819	1.4	0.0277509	1.01845	4	2.62591e-05	0.000000000000000E+000	1.39177e+08	0.000000000000000E+000	1.3994	0.000000000000000E+000	1.01845	1.01845	0	0	1.4	2	3.88347e-05
1	1	0	1	0	0	4	26720.1	0.00388728	-4.59101	1.4	0.0277128	1.11563	4	2.89664e-05	0.000000000000000E+000	1.52679e+08	0.000000000000000E+000	1.39942	0.000000000000000E+000	1.11563	1.11563	0	0	1.4	2	3.87818e-05
1	1	0	1	0	0	4	26970.1	0.00388729	-4.49383	1.4	0.0279991	1.21281	4	3.16875e-05	0.000000000000000E+000	1.64192e+08	0.000000000000000E+000	1.39942	0.000000000000000E+000	1.21281	1.21281	0	0	1.4	2	3.91826e-05
1	1	0	1	0	0	4	27220.1	0.00388726	-4.39664	1.4	0.0280564	1.30999	4	3.44215e-05	0.000000000000000E+000	1.76967e+08	0.000000000000000E+000	1.39942	0.000000000000000E+000	1.30999	1.30999	0	0	1.4	2	3.92625e-05
1	1	0	1	0	0	4	27470.1	0.00388725	-4.29946	1.4	0.0283427	1.40717	4	3.71668e-05	0.000000000000000E+000	1.88075e+08	0.000000000000000E+000	1.39941	0.000000000000000E+000	1.40717	1.40717	0	0	1.4	2	3.96631e-05
1	1	0	1	0	0	4	27720.1	0.00388731	-4.20228	1.4	0.0285336	1.50435	4	3.99288e-05	0.000000000000000E+000	1.99648e+08	0.000000000000000E+000	1.39943	0.000000000000000E+000	1.50435	1.50435	0	0	1.4	2	3.99308e-05
1	1	0	1	0	0	4	27970.1	0.00388723	-4.1051	1.4	0.02861	1.60154	4	4.27044e-05	0.000000000000000E+000	2.11949e+08	0.000000000000000E+000	1.3994	0.000000000000000E+000	1.60154	1.60154	0	0	1.4	2	4.00369e-05
1	1	0	1	0	0	4	28220.1	0.00388731	-4.00792	1.4	0.0286481	1.69872	4	4.54937e-05	0.000000000000000E+000	2.24495e+08	0.000000000000000E+000	1.39943	0.000000000000000E+000	1.69872	1.69872	0	0	1.4	2	4.00911e-05
1	1	0	1	0	0	4	28470.1	0.0038872	-3.91074	1.4	0.0289917	1.7959	4	4.82995e-05	0.000000000000000E+000	2.34382e+08	0.000000000000000E+000	1.39939	0.000000000000000E+000	1.7959	1.7959	0	0	1.4	2	4.05708e-05
1	1	0	1	0	0	4	28720.1	0.00388726	-3.81355	1.4	0.0290872	1.89308	4	5.11225e-05	0.000000000000000E+000	2.46213e+08	0.000000000000000E+000	1.39941	0.000000000000000E+000	1.89308	1.89308	0	0	1.4	2	4.07051e-05
1	1	0	1	0	0	4	28970.1	0.00388726	-3.71637	1.4	0.029469	1.99026	4	5.3964e-05	0.000000000000000E+000	2.55331e+08	0.000000000000000E+000	1.39941	0.000000000000000E+000	1.99026	1.99026	0	0	1.4	2	4.12393e-05
1	1	0	1	0	0	4	29220.1	0.00388724	-3.61919	1.4	0.0294881	2.08744	4	5.68222e-05	0.000000000000000E+000	2.67616e+08	0.000000000000000E+000	1.39941	0.000000000000000E+000	2.08744	2.08744	0	0	1.4	2	4.12658e-05
1	1	0	1	0	0	4	29470.1	0.00388722	-3.52201	1.4	0.0298126	2.18462	4	5.97047e-05	0.000000000000000E+000	2.76875e+08	0.000000000000000E+000	1.3994	0.000000000000000E+000	2.18462	2.18462	0	0	1.4	2	4.17197e-05
1	1	0	1	0	0	4	29720.1	0.00388725	-3.42483	1.4	0.0301371	2.28181	4	6.26131e-05	0.000000000000000E+000	2.85925e+08	0.000000000000000E+000	1.39941	0.000000000000000E+000	2.28181	2.28181	0	0	1.4	2	4.21742e-05
1	1	0	1	0	0	4	29970.1	0.00388724	-3.32765	1.4	0.0304044	2.37899	4	6.55514e-05	0.000000000000000E+000	2.95355e+08	0.000000000000000E+000	1.39941	0.000000000000000E+000	2.37899	2.37899	0	0	1.4	2	4.2548e-05
1	1	0	1	0	0	4	30220.1	0.00388725	-3.23047	1.4	0.030748	2.47617	4	6.85227e-05	0.000000000000000E+000	3.0382e+08	0.000000000000000E+000	1.39941	0.000000000000000E+000	2.47617	2.47617	0	0	1.4	2	4.3029e-05
1	1	0	1	0	0	4	30470.1	0.00388721	-3.13329	1.4	0.0312252	2.57335	4	7.15339e-05	0.000000000000000E+000	3.1069e+08	0.000000000000000E+000	1.3994	0.000000000000000E+000	2.57335	2.57335	0	0	1.4	2	4.36965e-05
1	1	0	1	0	0	4	30720.1	0.00388716	-3.03611	1.4	0.0317788	2.67053	4	7.4595e-05	0.000000000000000E+000	3.16546e+08	0.000000000000000E+000	1.39938	0.000000000000000E+000	2.67053	2.67053	0	0	1.4	2	4.44705e-05
1	1	0	1	0	0	4	30970.1	0.00388722	-2.93893	1.4	0.032466	2.76771	4	7.7714e-05	0.000000000000000E+000	3.20806e+08	0.000000000000000E+000	1.3994	0.000000000000000E+000	2.76771	2.76771	0	0	1.4	2	4.54329e-05
1	1	0	1	0	0	4	31220.1	0.00388721	-2.84175	1.4	0.0331914	2.86489	4	8.09e-05	0.000000000000000E+000	3.24491e+08	0.000000000000000E+000	1.3994	0.000000000000000E+000	2.86489	2.86489	0	0	1.4	2	4.64479e-05
1	1	0	1	0	0	4	31470.1	0.00388717	-2.74457	1.4	0.0340886	2.96207	4	8.41677e-05	0.000000000000000E+000	3.26288e+08	0.000000000000000E+000	1.39938	0.000000000000000E+000	2.96207	2.96207	0	0	1.4	2	4.77029e-05
1	1	0	1	0	0	4	31720.1	0.00388717	-2.64739	1.4	0.0351004	3.05925	4	8.75325e-05	0.000000000000000E+000	3.26874e+08	0.000000000000000E+000	1.39938	0.000000000000000E+000	3.05925	3.05925	0	0	1.4	2	4.91188e-05
1	1	0	1	0	0	4	31970.1	0.00388723	-2.55021	1.4	0.0368566	3.15643	4	9.10309e-05	0.000000000000000E+000	3.20549e+08	0.000000000000000E+000	1.3994	0.000000000000000E+000	3.15643	3.15643	0	0	1.4	2	5.15772e-05
1	1	0	1	0	0	4	32220.1	0.00388716	-2.45303	1.4	0.0393	3.25361	4	9.47244e-05	0.000000000000000E+000	3.09111e+08	0.000000000000000E+000	1.39938	0.000000000000000E+000	3.25361	3.25361	0	0	1.4	2	5.49956e-05
1	1	0	1	0	0	4	32470.1	0.00388713	-2.35585	1.4	0.0434997	3.35079	4	9.87374e-05	0.000000000000000E+000	2.86582e+08	0.000000000000000E+000	1.39937	0.000000000000000E+000	3.35079	3.35079	0	0	1.4	2	6.08721e-05
1	1	0	1	0	0	4	32720.1	0.00388725	-2.25867	1.4	0.0512309	3.44797	4	0.000103321	0.000000000000000E+000	2.49134e+08	0.000000000000000E+000	1.39941	0.000000000000000E+000	3.44797	3.44797	0	0	1.4	2	7.1693e-05
1	1	0	1	0	0	4	32970.1	0.0038872	-2.16149	1.4	0.0677623	3.54515	4	0.000109021	0.000000000000000E+000	1.92338e+08	0.000000000000000E+000	1.39939	0.000000000000000E+000	3.54515	3.54515	0	0	1.4	2	9.4826e-05
1	1	0	1	0	0	4	33220.1	0.00388721	-2.06431	1.4	0.106609	3.64233	4	0.000117338	0.000000000000000E+000	1.2464e+08	0.000000000000000E+000	1.3994	0.000000000000000E+000	3.64233	3.64233	0	0	1.4	2	0.000149189
1	1	0	1	0	0	4	33470.1	0.00388726	-1.96713	1.4	0.184857	3.73951	4	0.000131927	0.000000000000000E+000	7.3384e+07	0.000000000000000E+000	1.39941	0.000000000000000E+000	3.73951	3.73951	0	0	1.4	2	0.000258691
1	1	0	1	0	0	4	33720.1	0.00388721	-1.86995	1.4	0.233019	3.83669	4	0.00015243	0.000000000000000E+000	5.96346e+07	0.000000000000000E+000	1.3994	0.000000000000000E+000	3.83669	3.83669	0	0	1.4	2	0.000326087
1	1	0	1	0	0	4	33970.1	0.00388725	-1.77277	1.4	0.282194	3.93387	4	0.000177369	0.000000000000000E+000	5.04367e+07	0.000000000000000E+000	1.39941	0.000000000000000E+000	3.93387	3.93387	0	0	1.4	2	0.000394904
1	1	0	1	0	0	4	34220.1	0.00388734	-1.67558	1.4	0.440407	4.03105	4	0.000210486	0.000000000000000E+000	3.30565e+07	0.000000000000000E+000	1.39944	0.000000000000000E+000	4.03105	4.03105	0	0	1.4	2	0.000616323
2	1	0	0	0	0	4	34468.1	0.00223698	-1.58733	1.49992	1.49905	4.1193	4	0.00029498	0.000000000000000E+000	9.9019e+06	0.000000000000000E+000	0.805313	0.000000000000000E+000	4.1193	4.1193	0	1.49992	0	2	0.0012072
2	1	0	0	0	0	4	34718.1	0.000745145	-1.55138	1.49992	1.49897	4.15526	4	0.000348876	0.000000000000000E+000	9.98884e+06	0.000000000000000E+000	0.268252	0.000000000000000E+000	4.15526	4.15526	0	1.49992	0	2	0.000402102
2	1	0	0	0	0	4	34968.1	0.00035639	-1.53852	1.49992	1.4989	4.16812	4	0.000368152	0.000000000000000E+000	1.00203e+07	0.000000000000000E+000	0.1283	0.000000000000000E+000	4.16812	4.16812	0	1.49992	0	2	0.000192309
2	1	0	0	0	0	4	35218.1	0.000219212	-1.53202	1.49992	1.49886	4.17461	4	0.000377891	0.000000000000000E+000	1.00361e+07	0.000000000000000E+000	0.0789164	0.000000000000000E+000	4.17461	4.17461	0	1.49992	0	2	0.000118284
2	1	0	0	0	0	4	35468.1	0.000151571	-1.52751	1.49992	1.49899	4.17913	4	0.000384656	0.000000000000000E+000	1.00461e+07	0.000000000000000E+000	0.0545656	0.000000000000000E+000	4.17913	4.17913	0	1.49992	0	2	8.17933e-05
2	1	0	0	0	0	4	35718.1	0.000122723	-1.52411	1.49992	1.49895	4.18253	4	0.000389751	0.000000000000000E+000	1.00545e+07	0.000000000000000E+000	0.0441804	0.000000000000000E+000	4.18253	4.18253	0	1.49992	0	2	6.62243e-05
2	1	0	0	0	0	4	35968.1	9.98893e-05	-1.52134	1.49992	1.49899	4.18529	4	0.0003939	0.000000000000000E+000	1.00609e+07	0.000000000000000E+000	0.0359602	0.000000000000000E+000	4.18529	4.18529	0	1.49992	0	2	5.39039e-05
2	1	0	0	0	0	4	36218.1	9.25661e-05	-1.51893	1.49992	1.49899	4.1877	4	0.000397514	0.000000000000000E+000	1.00667e+07	0.000000000000000E+000	0.0333238	0.000000000000000E+000	4.1877	4.1877	0	1.49992	0	2	4.99521e-05
2	1	0	0	0	0	4	36468.1	7.86379e-05	-1.51686	1.49992	1.49895	4.18978	4	0.000400623	0.000000000000000E+000	1.0072e+07	0.000000000000000E+000	0.0283097	0.000000000000000E+000	4.18978	4.18978	0	1.49992	0	2	4.24348e-05
2	1	0	0	0	0	4	36718.1	6.85515e-05	-1.51496	1.49992	1.49897	4.19167	4	0.000403462	0.000000000000000E+000	1.00764e+07	0.000000000000000E+000	0.0246785	0.000000000000000E+000	4.19167	4.19167	0	1.49992	0	2	3.69924e-05
2	1	0	0	0	0	4	36968.1	6.02921e-05	-1.51336	1.49992	1.49888	4.19327	4	0.000405858	0.000000000000000E+000	1.00809e+07	0.000000000000000E+000	0.0217051	0.000000000000000E+000	4.19327	4.19327	0	1.49992	0	2	3.25333e-05
2	1	0	0	0	0	4	37218.1	5.52084e-05	-1.51194	1.49992	1.4988	4.19469	4	0.000407986	0.000000000000000E+000	1.00848e+07	0.000000000000000E+000	0.019875	0.000000000000000E+000	4.19469	4.19469	0	1.49992	0	2	2.97887e-05
2	1	0	0	0	0	4	37468.1	5.02646e-05	-1.51063	1.49992	1.49905	4.19601	4	0.000409958	0.000000000000000E+000	1.00863e+07	0.000000000000000E+000	0.0180953	0.000000000000000E+000	4.19601	4.19601	0	1.49992	0	2	2.71257e-05
2	1	0	0	0	0	4	37718.1	4.23798e-05	-1.50942	1.49992	1.49893	4.19721	4	0.000411764	0.000000000000000E+000	1.00899e+07	0.000000000000000E+000	0.0152567	0.000000000000000E+000	4.19721	4.19721	0	1.49992	0	2	2.28688e-05
2	1	0	0	0	0	4	37968.1	3.98818e-05	-1.50838	1.49992	1.49895	4.19825	4	0.000413322	0.000000000000000E+000	1.00923e+07	0.000000000000000E+000	0.0143575	0.000000000000000E+000	4.19825	4.19825	0	1.49992	0	2	2.15211e-05
2	1	0	0	0	0	4	38218.1	3.6978e-05	-1.50742	1.49992	1.49895	4.19921	4	0.000414763	0.000000000000000E+000	1.00946e+07	0.000000000000000E+000	0.0133121	0.000000000000000E+000	4.19921	4.19921	0	1.49992	0	2	1.99542e-05
2	1	0	0	0	0	4	38468.1	3.77727e-05	-1.5065	1.49992	1.49888	4.20014	4	0.000416149	0.000000000000000E+000	1.00974e+07	0.000000000000000E+000	0.0135982	0.000000000000000E+000	4.20014	4.20014	0	1.49992	0	2	2.0382e-05
2	1	0	0	0	0	4	38718.1	3.18844e-05	-1.50566	1.49992	1.49905	4.20097	4	0.000417404	0.000000000000000E+000	1.00982e+07	0.000000000000000E+000	0.0114784	0.000000000000000E+000	4.20097	4.20097	0	1.49992	0	2	1.72066e-05
2	1	0	0	0	0	4	38968.1	2.99812e-05	-1.50489	1.49992	1.49888	4.20175	4	0.000418564	0.000000000000000E+000	1.01012e+07	0.000000000000000E+000	0.0107932	0.000000000000000E+000	4.20175	4.20175	0	1.49992	0	2	1.61777e-05
2	1	0	0	0	0	4	39218.1	2.83846e-05	-1.50415	1.49992	1.49888	4.20248	4	0.000419661	0.000000000000000E+000	1.0103e+07	0.000000000000000E+000	0.0102185	0.000000000000000E+000	4.20248	4.20248	0	1.49992	0	2	1.53162e-05
2	1	0	0	0	0	4	39468.1	2.67008e-05	-1.50347	1.49992	1.49895	4.20317	4	0.00042069	0.000000000000000E+000	1.01041e+07	0.000000000000000E+000	0.00961228	0.000000000000000E+000	4.20317	4.20317	0	1.49992	0	2	1.44084e-05
2	1	0	0	0	0	4	39718.1	2.59449e-05	-1.50281	1.49992	1.4989	4.20382	4	0.000421673	0.000000000000000E+000	1.01061e+07	0.000000000000000E+000	0.00934015	0.000000000000000E+000	4.20382	4.20382	0	1.49992	0	2	1.39999e-05
2	1	0	0	0	0	4	39968.1	2.48714e-05	-1.50218	1.49992	1.49899	4.20445	4	0.00042262	0.000000000000000E+000	1.0107e+07	0.000000000000000E+000	0.0089537	0.000000000000000E+000	4.20445	4.20445	0	1.49992	0	2	1.34215e-05
2	1	0	0	0	0	4	40218.1	2.37923e-05	-1.50158	1.49992	1.49886	4.20506	4	0.000423527	0.000000000000000E+000	1.01093e+07	0.000000000000000E+000	0.00856522	0.000000000000000E+000	4.20506	4.20506	0	1.49992	0	2	1.2838e-05
2	1	0	0	0	0	4	40468.1	2.34458e-05	-1.50099	1.49992	1.49899	4.20564	4	0.000424404	0.000000000000000E+000	1.01098e+07	0.000000000000000E+000	0.00844049	0.000000000000000E+000	4.20564	4.20564	0	1.49992	0	2	1.26522e-05
2	1	0	0	0	0	4	40718.1	2.1587e-05	-1.50044	1.49992	1.49893	4.2062	4	0.000425235	0.000000000000000E+000	1.01116e+07	0.000000000000000E+000	0.00777131	0.000000000000000E+000	4.2062	4.2062	0	1.49992	0	2	1.16487e-05
2	1	0	0	0	0	4	40968.1	2.06817e-05	-1.4999	1.49992	1.4989	4.20673	4	0.000426033	0.000000000000000E+000	1.01131e+07	0.000000000000000E+000	0.0074454	0.000000000000000E+000	4.20673	4.20673	0	1.49992	0	2	1.11599e-05
2	1	0	0	0	0	4	41218.1	2.00873e-05	-1.49939	1.49992	1.49886	4.20724	4	0.000426801	0.000000000000000E+000	1.01146e+07	0.000000000000000E+000	0.00723144	0.000000000000000E+000	4.20724	4.20724	0	1.49992	0	2	1.08389e-05
2	1	0	0	0	0	4	41468.1	1.92361e-05	-1.4989	1.49992	1.49888	4.20773	4	0.000427537	0.000000000000000E+000	1.01156e+07	0.000000000000000E+000	0.006925	0.000000000000000E+000	4.20773	4.20773	0	1.49992	0	2	1.03797e-05
2	1	0	0	0	1	4	41698.1	1.78817e-05	-1.49847	1.49992	1.49878	4.20816	4	0.000428181	0.000000000000000E+000	1.01173e+07	0.000000000000000E+000	0.00643742	0.000000000000000E+000	4.20816	4.20816	0	1.49992	0	2	9.64831e-06
2	1	0	0	0	1	4	41948.1	1.73254e-05	-1.49801	1.49992	1.49869	4.20862	4	0.000428869	0.000000000000000E+000	1.0119e+07	0.000000000000000E+000	0.00623715	0.000000000000000E+000	4.20862	4.20862	0	1.49992	0	2	9.34754e-06
2	1	0	0	0	1	4	42198.1	1.67054e-05	-1.49759	1.49992	1.49876	4.20905	4	0.000429507	0.000000000000000E+000	1.01195e+07	0.000000000000000E+000	0.00601395	0.000000000000000E+000	4.20905	4.20905	0	1.49992	0	2	9.01349e-06
2	1	0	0	0	1	4	42448.1	1.80759e-05	-1.49715	1.49992	1.49886	4.20948	4	0.000430154	0.000000000000000E+000	1.01199e+07	0.000000000000000E+000	0.00650734	0.000000000000000E+000	4.20948	4.20948	0	1.49992	0	2	9.75359e-06
2	1	0	0	0	1	4	42698.1	1.60324e-05	-1.49675	1.49992	1.49878	4.20988	4	0.00043076	0.000000000000000E+000	1.01214e+07	0.000000000000000E+000	0.00577166	0.000000000000000E+000	4.20988	4.20988	0	1.49992	0	2	8.65047e-06
2	1	0	0	0	1	4	42948.1	1.51207e-05	-1.49637	1.49992	1.49865	4.21027	4	0.000431335	0.000000000000000E+000	1.01232e+07	0.000000000000000E+000	0.00544343	0.000000000000000E+000	4.21027	4.21027	0	1.49992	0	2	8.1578e-06
2	1	0	0	0	1	4	43198.1	1.45131e-05	-1.49599	1.49992	1.49871	4.21064	4	0.000431892	0.000000000000000E+000	1.01238e+07	0.000000000000000E+000	0.0052247	0.000000000000000E+000	4.21064	4.21064	0	1.49992	0	2	7.8303e-06
2	1	0	0	0	1	4	43448.1	1.43773e-05	-1.49563	1.49992	1.4989	4.211	4	0.000432435	0.000000000000000E+000	1.01233e+07	0.000000000000000E+000	0.00517583	0.000000000000000E+000	4.211	4.211	0	1.49992	0	2	7.75804e-06
2	1	0	0	0	1	4	43698.1	1.44375e-05	-1.49527	1.49992	1.49869	4.21136	4	0.000432977	0.000000000000000E+000	1.01256e+07	0.000000000000000E+000	0.00519749	0.000000000000000E+000	4.21136	4.21136	0	1.49992	0	2	7.78942e-06
2	1	0	0	0	1	4	43948.1	1.49506e-05	-1.4949	1.49992	1.49869	4.21173	4	0.000433532	0.000000000000000E+000	1.01265e+07	0.000000000000000E+000	0.00538221	0.000000000000000E+000	4.21173	4.21173	0	1.49992	0	2	8.06625e-06
2	1	0	0	0	1	4	44198.1	1.34647e-05	-1.49455	1.49992	1.49873	4.21208	4	0.000434057	0.000000000000000E+000	1.01271e+07	0.000000000000000E+000	0.0048473	0.000000000000000E+000	4.21208	4.21208	0	1.49992	0	2	7.26478e-06
2	1	0	0	0	1	4	44448.1	1.30831e-05	-1.49422	1.49992	1.49876	4.21242	4	0.000434553	0.000000000000000E+000	1.01276e+07	0.000000000000000E+000	0.00470992	0.000000000000000E+000	4.21242	4.21242	0	1.49992	0	2	7.05906e-06
2	1	0	0	0	1	4	44698.1	1.27212e-05	-1.4939	1.49992	1.49873	4.21274	4	0.000435035	0.000000000000000E+000	1.01287e+07	0.000000000000000E+000	0.00457965	0.000000000000000E+000	4.21274	4.21274	0	1.49992	0	2	6.86364e-06
2	1	0	0	0	1	4	44948.1	1.24341e-05	-1.49358	1.49992	1.49878	4.21305	4	0.000435508	0.000000000000000E+000	1.0129e+07	0.000000000000000E+000	0.00447627	0.000000000000000E+000	4.21305	4.21305	0	1.49992	0	2	6.70895e-06
2	1	0	0	0	1	4	45198.1	1.20711e-05	-1.49326	1.49992	1.4988	4.21337	4	0.000435984	0.000000000000000E+000	1.01297e+07	0.000000000000000E+000	0.00434559	0.000000000000000E+000	4.21337	4.21337	0	1.49992	0	2	6.51318e-06
2	1	0	0	0	1	4	45448.1	1.19331e-05	-1.49296	1.49992	1.49882	4.21367	4	0.000436433	0.000000000000000E+000	1.01303e+07	0.000000000000000E+000	0.0042959	0.000000000000000E+000	4.21367	4.21367	0	1.49992	0	2	6.43879e-06
2	1	0	0	0	1	4	45698.1	1.14984e-05	-1.49267	1.49992	1.49878	4.21396	4	0.00043687	0.000000000000000E+000	1.01312e+07	0.000000000000000E+000	0.00413943	0.000000000000000E+000	4.21396	4.21396	0	1.49992	0	2	6.20411e-06
2	1	0	0	0	1	4	45948.1	1.09111e-05	-1.49239	1.49992	1.49873	4.21424	4	0.000437291	0.000000000000000E+000	1.01323e+07	0.000000000000000E+000	0.003928	0.000000000000000E+000	4.21424	4.21424	0	1.49992	0	2	5.88699e-06
2	1	0	0	0	1	4	46198.1	1.07278e-05	-1.49212	1.49992	1.49882	4.21451	4	0.000437697	0.000000000000000E+000	1.01323e+07	0.000000000000000E+000	0.00386202	0.000000000000000E+000	4.21451	4.21451	0	1.49992	0	2	5.78848e-06
2	1	0	0	0	1	4	46448.1	1.05864e-05	-1.49186	1.49992	1.49875	4.21478	4	0.000438093	0.000000000000000E+000	1.01334e+07	0.000000000000000E+000	0.00381109	0.000000000000000E+000	4.21478	4.21478	0	1.49992	0	2	5.71186e-06
2	1	0	0	0	1	4	46698.1	1.25116e-05	-1.49159	1.49992	1.49873	4.21504	4	0.000438492	0.000000000000000E+000	1.01342e+07	0.000000000000000E+000	0.00450417	0.000000000000000E+000	4.21504	4.21504	0	1.49992	0	2	6.75052e-06
2	1	0	0	0	1	4	46948.1	9.75812e-06	-1.49134	1.49992	1.49886	4.21529	4	0.000438866	0.000000000000000E+000	1.01339e+07	0.000000000000000E+000	0.00351292	0.000000000000000E+000	4.21529	4.21529	0	1.49992	0	2	5.26538e-06
2	1	0	0	0	1	4	47198.1	9.58559e-06	-1.4911	1.49992	1.49875	4.21553	4	0.000439227	0.000000000000000E+000	1.01353e+07	0.000000000000000E+000	0.00345081	0.000000000000000E+000	4.21553	4.21553	0	1.49992	0	2	5.17189e-06
2	1	0	0	0	1	4	47448.1	9.42501e-06	-1.49086	1.49992	1.49875	4.21577	4	0.000439585	0.000000000000000E+000	1.01358e+07	0.000000000000000E+000	0.00339301	0.000000000000000E+000	4.21577	4.21577	0	1.49992	0	2	5.08525e-06
2	1	0	0	0	1	4	47698.1	8.79637e-06	-1.49063	1.49992	1.49876	4.216	4	0.000439927	0.000000000000000E+000	1.01363e+07	0.000000000000000E+000	0.00316669	0.000000000000000E+000	4.216	4.216	0	1.49992	0	2	4.74613e-06
2	1	0	0	0	1	4	47948.1	8.90832e-06	-1.49041	1.49992	1.49878	4.21622	4	0.000440261	0.000000000000000E+000	1.01367e+07	0.000000000000000E+000	0.00320699	0.000000000000000E+000	4.21622	4.21622	0	1.49992	0	2	4.80659e-06
2	1	0	0	0	1	4	48198.1	8.749e-06	-1.49019	1.49992	1.49873	4.21645	4	0.000440593	0.000000000000000E+000	1.01376e+07	0.000000000000000E+000	0.00314964	0.000000000000000E+000	4.21645	4.21645	0	1.49992	0	2	4.72045e-06
2	1	0	0	0	1	4	48448.1	8.70321e-06	-1.48997	1.49992	1.49873	4.21666	4	0.000440922	0.000000000000000E+000	1.01381e+07	0.000000000000000E+000	0.00313316	0.000000000000000E+000	4.21666	4.21666	0	1.49992	0	2	4.69575e-06
2	1	0	0	0	1	4	48698.1	8.67114e-06	-1.48975	1.49992	1.49871	4.21688	4	0.00044125	0.000000000000000E+000	1.01388e+07	0.000000000000000E+000	0.00312161	0.000000000000000E+000	4.21688	4.21688	0	1.49992	0	2	4.67838e-06
2	1	0	0	0	0	4	48928.1	8.64017e-06	-1.48955	1.49992	1.49878	4.21708	4	0.000441548	0.000000000000000E+000	1.01387e+07	0.000000000000000E+000	0.00311046	0.000000000000000E+000	4.21708	4.21708	0	1.49992	0	2	4.66191e-06
2	1	0	0	0	0	4	49178.1	8.3899e-06	-1.48934	1.49992	1.49871	4.21729	4	0.000441866	0.000000000000000E+000	1.01398e+07	0.000000000000000E+000	0.00302037	0.000000000000000E+000	4.21729	4.21729	0	1.49992	0	2	4.52665e-06
2	1	0	0	0	0	4	49428.1	8.31771e-06	-1.48913	1.49992	1.49876	4.2175	4	0.000442178	0.000000000000000E+000	1.01399e+07	0.000000000000000E+000	0.00299437	0.000000000000000E+000	4.2175	4.2175	0	1.49992	0	2	4.48786e-06
2	1	0	0	0	0	4	49678.1	8.07723e-06	-1.48893	1.49992	1.49876	4.21771	4	0.000442484	0.000000000000000E+000	1.01404e+07	0.000000000000000E+000	0.0029078	0.000000000000000E+000	4.21771	4.21771	0	1.49992	0	2	4.35811e-06
2	1	0	0	0	0	4	49928.1	7.94875e-06	-1.48873	1.49992	1.49886	4.21791	4	0.000442784	0.000000000000000E+000	1.01402e+07	0.000000000000000E+000	0.00286155	0.000000000000000E+000	4.21791	4.21791	0	1.49992	0	2	4.28907e-06
2	1	0	0	0	0	4	50178.1	7.77097e-06	-1.48853	1.49992	1.49882	4.2181	4	0.000443079	0.000000000000000E+000	1.01409e+07	0.000000000000000E+000	0.00279755	0.000000000000000E+000	4.2181	4.2181	0	1.49992	0	2	4.19303e-06
2	1	0	0	0	0	4	50428.1	7.813e-06	-1.48834	1.49992	1.49875	4.2183	4	0.000443372	0.000000000000000E+000	1.01419e+07	0.000000000000000E+000	0.00281268	0.000000000000000E+000	4.2183	4.2183	0	1.49992	0	2	4.21549e-06
2	1	0	0	0	0	4	50678.1	7.49303e-06	-1.48814	1.49992	1.49884	4.21849	4	0.000443663	0.000000000000000E+000	1.01417e+07	0.000000000000000E+000	0.00269749	0.000000000000000E+000	4.21849	4.21849	0	1.49992	0	2	4.04311e-06
2	1	0	0	0	0	4	50928.1	7.40458e-06	-1.48795	1.49992	1.49884	4.21868	4	0.000443943	0.000000000000000E+000	1.01422e+07	0.000000000000000E+000	0.00266565	0.000000000000000E+000	4.21868	4.21868	0	1.49992	0	2	3.99539e-06
2	1	0	0	0	0	4	51178.1	7.23622e-06	-1.48777	1.49992	1.49875	4.21887	4	0.000444221	0.000000000000000E+000	1.01433e+07	0.000000000000000E+000	0.00260504	0.000000000000000E+000	4.21887	4.21887	0	1.49992	0	2	3.90429e-06
2	1	0	0	0	0	4	51428.1	7.17193e-06	-1.48759	1.49992	1.49865	4.21905	4	0.000444495	0.000000000000000E+000	1.01444e+07	0.000000000000000E+000	0.00258189	0.000000000000000E+000	4.21905	4.21905	0	1.49992	0	2	3.86936e-06
2	1	0	0	0	0	4	51678.1	7.09403e-06	-1.48741	1.49992	1.49878	4.21923	4	0.000444763	0.000000000000000E+000	1.01439e+07	0.000000000000000E+000	0.00255385	0.000000000000000E+000	4.21923	4.21923	0	1.49992	0	2	3.82767e-06
2	1	0	0	0	0	4	51928.1	6.88365e-06	-1.48723	1.49992	1.49878	4.2194	4	0.000445024	0.000000000000000E+000	1.01443e+07	0.000000000000000E+000	0.00247811	0.000000000000000E+000	4.2194	4.2194	0	1.49992	0	2	3.71416e-06
2	1	0	0	0	0	4	52178.1	6.94957e-06	-1.48706	1.49992	1.4988	4.21957	4	0.000445281	0.000000000000000E+000	1.01446e+07	0.000000000000000E+000	0.00250185	0.000000000000000E+000	4.21957	4.21957	0	1.49992	0	2	3.74978e-06
2	1	0	0	0	0	4	52428.1	6.76567e-06	-1.48689	1.49992	1.49867	4.21974	4	0.000445537	0.000000000000000E+000	1.01459e+07	0.000000000000000E+000	0.00243564	0.000000000000000E+000	4.21974	4.21974	0	1.49992	0	2	3.65022e-06
2	1	0	0	0	0	4	52678.1	6.76687e-06	-1.48672	1.49992	1.49873	4.21991	4	0.000445789	0.000000000000000E+000	1.01459e+07	0.000000000000000E+000	0.00243607	0.000000000000000E+000	4.21991	4.21991	0	1.49992	0	2	3.65101e-06
2	1	0	0	0	0	4	52928.1	6.50351e-06	-1.48656	1.49992	1.49886	4.22008	4	0.000446035	0.000000000000000E+000	1.01454e+07	0.000000000000000E+000	0.00234126	0.000000000000000E+000	4.22008	4.22008	0	1.49992	0	2	3.50923e-06
2	1	0	0	0	0	4	53178.1	6.81983e-06	-1.48639	1.49992	1.49876	4.22025	4	0.000446293	0.000000000000000E+000	1.01465e+07	0.000000000000000E+000	0.00245514	0.000000000000000E+000	4.22025	4.22025	0	1.49992	0	2	3.67968e-06
2	1	0	0	0	0	4	53428.1	7.11564e-06	-1.48621	1.49992	1.49871	4.22043	4	0.000446564	0.000000000000000E+000	1.01473e+07	0.000000000000000E+000	0.00256163	0.000000000000000E+000	4.22043	4.22043	0	1.49992	0	2	3.83914e-06
2	1	0	0	0	0	4	53678.1	6.85344e-06	-1.48603	1.49992	1.4988	4.2206	4	0.000446827	0.000000000000000E+000	1.01471e+07	0.000000000000000E+000	0.00246724	0.000000000000000E+000	4.2206	4.2206	0	1.49992	0	2	3.6979e-06
2	1	0	0	0	0	4	53928.1	6.30565e-06	-1.48586	1.49992	1.49878	4.22077	4	0.000447079	0.000000000000000E+000	1.01476e+07	0.000000000000000E+000	0.00227004	0.000000000000000E+000	4.22077	4.22077	0	1.49992	0	2	3.40229e-06
2	1	0	0	0	0	4	54178.1	6.20976e-06	-1.48565	1.49992	1.49871	4.22098	4	0.000447391	0.000000000000000E+000	1.01486e+07	0.000000000000000E+000	0.00223551	0.000000000000000E+000	4.22098	4.22098	0	1.49992	0	2	3.35038e-06
2	1	0	0	0	0	4	54428.1	5.63591e-06	-1.48551	1.49992	1.49867	4.22112	4	0.000447602	0.000000000000000E+000	1.01492e+07	0.000000000000000E+000	0.00202893	0.000000000000000E+000	4.22112	4.22112	0	1.49992	0	2	3.04069e-06
2	1	0	0	0	0	4	54678.1	5.58662e-06	-1.48537	1.49992	1.4988	4.22127	4	0.000447818	0.000000000000000E+000	1.01487e+07	0.000000000000000E+000	0.00201118	0.000000000000000E+000	4.22127	4.22127	0	1.49992	0	2	3.01437e-06
2	1	0	0	0	0	4	54928.1	5.65819e-06	-1.48523	1.49992	1.49876	4.22141	4	0.000448027	0.000000000000000E+000	1.01493e+07	0.000000000000000E+000	0.00203695	0.000000000000000E+000	4.22141	4.22141	0	1.49992	0	2	3.0529e-06
2	1	0	0	0	0	4	55178.1	5.6572e-06	-1.48509	1.49992	1.49871	4.22155	4	0.000448238	0.000000000000000E+000	1.015e+07	0.000000000000000E+000	0.00203659	0.000000000000000E+000	4.22155	4.22155	0	1.49992	0	2	3.05226e-06
2	1	0	0	0	0	4	55428.1	5.55344e-06	-1.48495	1.49992	1.49875	4.22168	4	0.000448445	0.000000000000000E+000	1.01501e+07	0.000000000000000E+000	0.00199924	0.000000000000000E+000	4.22168	4.22168	0	1.49992	0	2	2.99635e-06
2	1	0	0	0	0	4	55678.1	5.30376e-06	-1.48481	1.49992	1.49867	4.22182	4	0.00044865	0.000000000000000E+000	1.01509e+07	0.000000000000000E+000	0.00190935	0.000000000000000E+000	4.22182	4.22182	0	1.49992	0	2	2.86149e-06
2	1	0	0	0	0	4	55928.1	5.30885e-06	-1.48468	1.49992	1.49869	4.22195	4	0.000448848	0.000000000000000E+000	1.01511e+07	0.000000000000000E+000	0.00191119	0.000000000000000E+000	4.22195	4.22195	0	1.49992	0	2	2.86427e-06
2	1	0	0	0	0	4	55998.1	5.2252e-06	-1.48464	1.49992	1.49878	4.22199	4	0.000448903	0.000000000000000E+000	1.01505e+07	0.000000000000000E+000	0.00188103	0.000000000000000E+000	4.22199	4.22199	0	1.49992	0	2	2.81926e-06